Folder: PlatedHe4Nanopores/Data

Note: README.md
# PlatedHe4Nanopores
Code, scripts and data for our Plated helium-4 nanopores project

File: 4He-isotherm.tsv
#P/P0	nsorb [mmol/g]
0	0
0.000136054	1.71754
0.000272109	3.11488
0.000272109	3.99542
0.000272109	5.03605
0.000272109	6.08512
0.0029932	7.03443
0.00544218	7.44307
0.00816327	7.80255
0.0121088	8.17886
0.0185034	8.53829
0.0244898	8.88509
0.0266667	8.97634
0.0340136	9.27116
0.0378231	9.40452
0.0517007	9.82564
0.0658503	10.1681
0.0855782	10.5877
0.105986	10.9666
0.147075	11.6079
0.18449	12.068
0.21551	12.3414
0.24381	12.525
0.277551	12.6776
0.320272	12.7964
0.377687	12.8813
0.433741	12.9254
0.509524	12.9764
0.588844	13.0244
0.674422	12.9867
0.748707	13.091
0.818503	13.2628
0.881905	13.5049
0.887075	14.3489
0.917551	14.6827
0.940408	15.0784
0.986259	17.2503
0.991701	19.7388